#WAVELENGTH FLUX
#---------- ----
2000.914917 2.5658E-14
2002.287964 2.6494E-14
2003.660889 2.5443E-14
2005.033936 2.651E-14
2006.406982 2.8325E-14
2007.780029 2.5961E-14
2009.152954 2.8581E-14
2010.526001 2.8697E-14
2011.899048 2.9287E-14
2013.272095 2.9977E-14
2014.645264 2.8931E-14
2016.018311 2.7978E-14
2017.391357 2.8527E-14
2018.764404 2.9681E-14
2020.137573 3.0164E-14
2021.51062 3.1823E-14
2022.883667 3.1996E-14
2024.256836 3.2532E-14
2025.630005 2.777E-14
2027.003052 3.1756E-14
2028.376221 3.3796E-14
2029.74939 3.3165E-14
2031.122437 3.6103E-14
2032.495605 3.6728E-14
2033.868774 3.4206E-14
2035.241943 3.3621E-14
2036.615112 3.5906E-14
2037.988281 3.6664E-14
2039.36145 3.5982E-14
2040.734619 3.8323E-14
2042.107788 3.8693E-14
2043.481079 4.0045E-14
2044.854248 4.0349E-14
2046.227417 4.1318E-14
2047.600708 4.0599E-14
2048.973877 3.9586E-14
2050.347168 3.8799E-14
2051.720459 3.8929E-14
2053.093506 3.9666E-14
2054.466797 3.8415E-14
2055.840088 3.9166E-14
2057.213379 3.6863E-14
2058.58667 3.4153E-14
2059.959961 3.8261E-14
2061.333252 3.701E-14
2062.706543 3.7652E-14
2064.079834 3.8415E-14
2065.453125 3.903E-14
2066.826416 3.8828E-14
2068.199707 4.0046E-14
2069.572998 4.139E-14
2070.946289 4.2103E-14
2072.31958 4.3158E-14
2073.692871 4.4007E-14
2075.066162 4.4837E-14
2076.439697 4.6883E-14
2077.812988 4.7469E-14
2079.186279 4.5905E-14
2080.55957 4.7776E-14
2081.933105 4.9476E-14
2083.306396 4.7008E-14
2084.679688 4.7348E-14
2086.053223 4.842E-14
2087.426514 4.9629E-14
2088.799805 4.8224E-14
2090.17334 4.9822E-14
2091.546631 4.9787E-14
2092.920166 4.9509E-14
2094.293457 5.0082E-14
2095.666992 5.2056E-14
2097.040283 5.3701E-14
2098.413818 5.2819E-14
2099.787109 5.3924E-14
2101.160645 5.2439E-14
2102.53418 5.341E-14
2103.907471 5.2025E-14
2105.281006 5.4685E-14
2106.654297 5.2186E-14
2108.027832 4.9732E-14
2109.401367 5.1084E-14
2110.774658 5.2321E-14
2112.148193 5.1405E-14
2113.521729 5.2211E-14
2114.895264 5.287E-14
2116.268799 5.6931E-14
2117.64209 5.6441E-14
2119.015625 5.9574E-14
2120.38916 5.8676E-14
2121.762695 5.7609E-14
2123.13623 5.2198E-14
2124.509766 4.7921E-14
2125.883301 5.3162E-14
2127.256836 5.6699E-14
2128.630127 5.6776E-14
2130.003662 5.7025E-14
2131.377197 5.3787E-14
2132.750732 5.3118E-14
2134.124268 5.2505E-14
2135.497803 5.3653E-14
2136.871582 5.7384E-14
2138.245117 5.756E-14
2139.618652 5.6413E-14
2140.992188 6.1619E-14
2142.365723 6.2133E-14
2143.739258 6.3299E-14
2145.112793 6.2116E-14
2146.486328 6.0813E-14
2147.860107 6.0328E-14
2149.233643 6.177E-14
2150.607178 6.0767E-14
2151.980713 6.079E-14
2153.354248 6.3981E-14
2154.728027 6.1853E-14
2156.101562 6.4479E-14
2157.475098 6.1372E-14
2158.848633 5.7945E-14
2160.222412 6.0868E-14
2161.595947 6.2817E-14
2162.969482 6.6753E-14
2164.343262 6.3686E-14
2165.716797 6.2916E-14
2167.090576 6.2506E-14
2168.464111 6.4647E-14
2169.837646 6.7741E-14
2171.211426 6.848E-14
2172.584961 6.716E-14
2173.95874 6.4635E-14
2175.332275 6.5172E-14
2176.706055 6.7742E-14
2178.07959 6.9743E-14
2179.453369 7.1607E-14
2180.826904 7.4304E-14
2182.200684 7.7391E-14
2183.574219 7.6266E-14
2184.947998 7.5443E-14
2186.321533 7.2755E-14
2187.695312 7.0575E-14
2189.068848 7.5359E-14
2190.442627 7.6009E-14
2191.816406 7.6917E-14
2193.189941 8.0217E-14
2194.563721 8.4401E-14
2195.9375 8.5517E-14
2197.311035 8.4257E-14
2198.684814 8.5614E-14
2200.058594 8.1746E-14
2201.432129 8.1432E-14
2202.805908 8.7473E-14
2204.179688 8.8916E-14
2205.553223 8.512E-14
2206.927002 8.2599E-14
2208.300781 7.9405E-14
2209.674316 7.7187E-14
2211.048096 7.1509E-14
2212.421875 7.3974E-14
2213.795654 8.2197E-14
2215.169434 8.2363E-14
2216.542969 7.9361E-14
2217.916748 7.8044E-14
2219.290527 8.335E-14
2220.664307 8.7155E-14
2222.038086 8.7474E-14
2223.411621 8.9341E-14
2224.7854 8.9789E-14
2226.15918 9.1914E-14
2227.532959 9.3261E-14
2228.906738 9.2982E-14
2230.280518 9.5158E-14
2231.654297 9.5828E-14
2233.027832 9.6857E-14
2234.401611 9.7208E-14
2235.775391 1.0159E-13
2237.14917 1.006E-13
2238.522949 1.0348E-13
2239.896729 1.0232E-13
2241.270508 1.0083E-13
2242.644287 9.8307E-14
2244.018066 9.5639E-14
2245.391846 9.4012E-14
2246.765625 9.8518E-14
2248.139404 9.8659E-14
2249.513184 9.4441E-14
2250.886963 9.1859E-14
2252.260742 9.142E-14
2253.634277 9.2185E-14
2255.008057 9.1558E-14
2256.381836 9.399E-14
2257.755615 9.5457E-14
2259.129395 9.7954E-14
2260.503174 9.1501E-14
2261.876953 9.3074E-14
2263.250732 9.7995E-14
2264.624512 9.7004E-14
2265.998535 9.3807E-14
2267.372314 9.2664E-14
2268.746094 9.378E-14
2270.119873 9.5952E-14
2271.493652 9.8947E-14
2272.867432 1.0057E-13
2274.241211 1.0284E-13
2275.61499 9.8592E-14
2276.98877 9.8868E-14
2278.362549 1.0268E-13
2279.736328 1.0316E-13
2281.110107 1.067E-13
2282.483887 1.104E-13
2283.857666 1.047E-13
2285.231445 1.0991E-13
2286.605225 1.0501E-13
2287.979004 1.0368E-13
2289.352783 1.0375E-13
2290.726562 1.0305E-13
2292.100586 1.0501E-13
2293.474365 1.0606E-13
2294.848145 1.0646E-13
2296.221924 1.0551E-13
2297.595703 9.6293E-14
2298.969482 9.662E-14
2300.343262 1.0123E-13
2301.717041 1.0528E-13
2303.09082 1.0581E-13
2304.4646 1.0975E-13
2305.838379 1.1534E-13
2307.212158 1.1519E-13
2308.586182 1.1559E-13
2309.959961 1.1507E-13
2311.33374 1.1121E-13
2312.70752 1.0605E-13
2314.081299 1.0767E-13
2315.455078 1.1411E-13
2316.828857 1.161E-13
2318.202637 1.1753E-13
2319.576416 1.1512E-13
2320.950195 1.1527E-13
2322.323975 1.1834E-13
2323.697754 1.2222E-13
2325.071533 1.1912E-13
2326.445557 1.1335E-13
2327.819336 1.1433E-13
2329.193115 1.2221E-13
2330.566895 1.1569E-13
2331.940674 1.0989E-13
2333.314453 1.0807E-13
2334.688232 1.1621E-13
2336.062012 1.1748E-13
2337.435791 1.1236E-13
2338.80957 1.0701E-13
2340.18335 1.1516E-13
2341.557129 1.2002E-13
2342.930908 1.0435E-13
2344.304688 8.3552E-14
2345.678467 9.3453E-14
2347.052246 1.0189E-13
2348.426025 9.6627E-14
2349.799805 1.1531E-13
2351.173584 1.2519E-13
2352.547363 1.2989E-13
2353.921143 1.2794E-13
2355.295166 1.2073E-13
2356.668945 1.2604E-13
2358.042725 1.2813E-13
2359.416504 1.1252E-13
2360.790039 1.0736E-13
2362.163818 1.191E-13
2363.537598 1.2322E-13
2364.911377 1.1819E-13
2366.285156 1.22E-13
2367.658936 1.2327E-13
2369.032715 1.2785E-13
2370.406494 1.3317E-13
2371.780273 1.3534E-13
2373.154053 1.266E-13
2374.527832 1.1613E-13
2375.901611 1.2576E-13
2377.275391 1.3469E-13
2378.64917 1.2714E-13
2380.022949 1.1221E-13
2381.396729 9.3436E-14
2382.770508 7.6641E-14
2384.144043 9.6753E-14
2385.517822 1.2167E-13
2386.891602 1.2846E-13
2388.265381 1.1826E-13
2389.63916 1.1699E-13
2391.012939 1.3634E-13
2392.386719 1.4031E-13
2393.760254 1.3811E-13
2395.134033 1.1106E-13
2396.507812 1.071E-13
2397.881592 1.2795E-13
2399.255371 1.2143E-13
2400.628906 1.2945E-13
2402.002686 1.3652E-13
2403.376465 1.3129E-13
2404.750244 1.1316E-13
2406.124023 1.0856E-13
2407.497559 1.1557E-13
2408.871338 1.3184E-13
2410.245117 1.1923E-13
2411.618652 1.0784E-13
2412.992432 1.2121E-13
2414.366211 1.2841E-13
2415.73999 1.4482E-13
2417.113525 1.4919E-13
2418.487305 1.5244E-13
2419.861084 1.5903E-13
2421.234619 1.6408E-13
2422.608398 1.6284E-13
2423.981934 1.5113E-13
2425.355713 1.5215E-13
2426.729492 1.6082E-13
2428.103027 1.6117E-13
2429.476807 1.5617E-13
2430.850342 1.6311E-13
2432.224121 1.6501E-13
2433.597656 1.5789E-13
2434.971436 1.4866E-13
2436.345215 1.4896E-13
2437.71875 1.5396E-13
2439.092529 1.5126E-13
2440.466064 1.5505E-13
2441.8396 1.6503E-13
2443.213379 1.6262E-13
2444.586914 1.6285E-13
2445.960693 1.6217E-13
2447.334229 1.6643E-13
2448.708008 1.6599E-13
2450.081543 1.6225E-13
2451.455078 1.5701E-13
2452.828857 1.6017E-13
2454.202393 1.6412E-13
2455.575928 1.6796E-13
2456.949707 1.7197E-13
2458.323242 1.7217E-13
2459.696777 1.7057E-13
2461.070557 1.675E-13
2462.444092 1.5457E-13
2463.817627 1.5474E-13
2465.191162 1.5841E-13
2466.564941 1.6107E-13
2467.938477 1.6237E-13
2469.312012 1.6405E-13
2470.685547 1.6323E-13
2472.059082 1.614E-13
2473.432617 1.5257E-13
2474.806152 1.6313E-13
2476.179932 1.6491E-13
2477.553467 1.5738E-13
2478.927002 1.5407E-13
2480.300537 1.5262E-13
2481.674072 1.6435E-13
2483.047607 1.4696E-13
2484.421143 1.3783E-13
2485.794678 1.4585E-13
2487.168213 1.4663E-13
2488.541748 1.4169E-13
2489.915283 1.3496E-13
2491.288818 1.2827E-13
2492.662354 1.5282E-13
2494.035645 1.6612E-13
2495.40918 1.8028E-13
2496.782715 1.8151E-13
2498.15625 1.7964E-13
2499.529785 1.8297E-13
2500.90332 1.8013E-13
2502.276611 1.7429E-13
2503.650146 1.7646E-13
2505.023682 1.6597E-13
2506.397217 1.4791E-13
2507.770508 1.4477E-13
2509.144043 1.7582E-13
2510.517578 1.7471E-13
2511.890869 1.6255E-13
2513.264404 1.5726E-13
2514.637939 1.2579E-13
2516.01123 1.1E-13
2517.384766 1.1694E-13
2518.758057 1.2856E-13
2520.131592 1.4027E-13
2521.504883 1.5534E-13
2522.878418 1.3661E-13
2524.251709 1.216E-13
2525.625244 1.3223E-13
2526.998535 1.3174E-13
2528.371826 1.1941E-13
2529.745361 1.2023E-13
2531.118652 1.5576E-13
2532.492188 1.6745E-13
2533.865479 1.6975E-13
2535.23877 1.6528E-13
2536.612061 1.6061E-13
2537.985596 1.6707E-13
2539.358887 1.6866E-13
2540.732178 1.7114E-13
2542.105469 1.7103E-13
2543.47876 1.8167E-13
2544.852295 1.7382E-13
2546.225586 1.7143E-13
2547.598877 1.7719E-13
2548.972168 1.6597E-13
2550.345459 1.7329E-13
2551.71875 1.9336E-13
2553.092041 1.9941E-13
2554.465332 2.0749E-13
2555.838623 2.0347E-13
2557.211914 2.0597E-13
2558.585205 2.1116E-13
2559.958496 2.0901E-13
2561.331543 1.9945E-13
2562.704834 1.826E-13
2564.078125 1.8944E-13
2565.451416 2.109E-13
2566.824707 2.0952E-13
2568.197754 2.1003E-13
2569.571045 2.1057E-13
2570.944336 2.1228E-13
2572.317383 2.1139E-13
2573.690674 2.19E-13
2575.063965 2.1066E-13
2576.437012 1.9588E-13
2577.810303 2.0351E-13
2579.18335 2.201E-13
2580.556641 2.1671E-13
2581.929688 2.1537E-13
2583.302979 2.1186E-13
2584.676025 2.081E-13
2586.049316 1.7798E-13
2587.422363 2.0328E-13
2588.79541 2.2118E-13
2590.168701 2.2947E-13
2591.541748 2.2644E-13
2592.914795 2.2284E-13
2594.287842 2.1367E-13
2595.661133 2.2792E-13
2597.03418 2.1328E-13
2598.407227 1.5817E-13
2599.780273 1.58E-13
2601.15332 1.9152E-13
2602.526367 2.2659E-13
2603.899414 2.2966E-13
2605.272461 2.0623E-13
2606.645508 1.9029E-13
2608.018555 1.884E-13
2609.391602 2.0788E-13
2610.764648 1.9701E-13
2612.137695 1.6811E-13
2613.510742 1.7643E-13
2614.883789 1.924E-13
2616.256592 2.0994E-13
2617.629639 2.0713E-13
2619.002686 2.1026E-13
2620.375488 2.1744E-13
2621.748535 2.1844E-13
2623.121582 2.21E-13
2624.494385 2.2183E-13
2625.867432 2.1467E-13
2627.240234 2.0618E-13
2628.613281 1.9631E-13
2629.986084 1.8915E-13
2631.359131 1.7661E-13
2632.731934 2.0198E-13
2634.10498 2.385E-13
2635.477783 2.4851E-13
2636.850586 2.5288E-13
2638.223633 2.6255E-13
2639.596436 2.6628E-13
2640.969238 2.636E-13
2642.342041 2.6364E-13
2643.715088 2.6773E-13
2645.087891 2.6694E-13
2646.460693 2.6682E-13
2647.833496 2.6848E-13
2649.206299 2.7065E-13
2650.579102 2.7331E-13
2651.951904 2.719E-13
2653.324707 2.7296E-13
2654.69751 2.7752E-13
2656.070312 2.8079E-13
2657.442871 2.7203E-13
2658.815674 2.7332E-13
2660.188477 2.709E-13
2661.561279 2.6393E-13
2662.933838 2.599E-13
2664.306641 2.577E-13
2665.679443 2.5885E-13
2667.052002 2.4942E-13
2668.424805 2.5608E-13
2669.797363 2.6664E-13
2671.170166 2.6936E-13
2672.542725 2.6322E-13
2673.915527 2.7008E-13
2675.288086 2.7912E-13
2676.660889 2.7349E-13
2678.033447 2.5995E-13
2679.406006 2.567E-13
2680.778564 2.6842E-13
2682.151367 2.7469E-13
2683.523926 2.738E-13
2684.896484 2.7251E-13
2686.269043 2.7694E-13
2687.641602 2.7147E-13
2689.01416 2.6609E-13
2690.386719 2.6171E-13
2691.759277 2.6398E-13
2693.131836 2.6941E-13
2694.504395 2.6892E-13
2695.876953 2.6877E-13
2697.249512 2.7014E-13
2698.621826 2.6576E-13
2699.994385 2.7395E-13
2701.366943 2.7686E-13
2702.739502 2.7701E-13
2704.111816 2.8061E-13
2705.484375 2.7628E-13
2706.856689 2.7084E-13
2708.229248 2.7248E-13
2709.601562 2.7339E-13
2710.974121 2.7063E-13
2712.346436 2.6751E-13
2713.71875 2.7078E-13
2715.091309 2.6443E-13
2716.463623 2.6517E-13
2717.835938 2.6482E-13
2719.208252 2.5743E-13
2720.580811 2.5944E-13
2721.953125 2.6765E-13
2723.325439 2.6901E-13
2724.697754 2.6716E-13
2726.070068 2.6668E-13
2727.442383 2.6669E-13
2728.814697 2.6814E-13
2730.187012 2.8002E-13
2731.559326 2.7812E-13
2732.931396 2.7351E-13
2734.303711 2.6267E-13
2735.676025 2.6638E-13
2737.048096 2.5717E-13
2738.42041 2.5414E-13
2739.792725 2.5238E-13
2741.164795 2.52E-13
2742.537109 2.4766E-13
2743.90918 2.3626E-13
2745.281494 2.5165E-13
2746.653564 2.4462E-13
2748.025635 2.3455E-13
2749.397949 2.3435E-13
2750.77002 2.3498E-13
2752.14209 2.5825E-13
2753.51416 2.7627E-13
2754.886475 2.6331E-13
2756.258545 2.4759E-13
2757.630615 2.6006E-13
2759.002686 2.8645E-13
2760.374756 2.8942E-13
2761.746826 2.8719E-13
2763.118652 2.7484E-13
2764.490723 2.8924E-13
2765.862793 2.8678E-13
2767.234863 2.8355E-13
2768.606934 2.836E-13
2769.97876 2.8616E-13
2771.35083 2.965E-13
2772.722656 2.9485E-13
2774.094727 3.0157E-13
2775.466553 2.9306E-13
2776.838623 2.9067E-13
2778.210449 2.8346E-13
2779.58252 2.7742E-13
2780.954346 2.7986E-13
2782.326172 2.8145E-13
2783.697998 2.8441E-13
2785.069824 2.9E-13
2786.441895 2.8573E-13
2787.813721 2.7357E-13
2789.185547 2.5406E-13
2790.557373 2.3019E-13
2791.929199 1.8623E-13
2793.301025 1.3362E-13
2794.672607 7.876E-14
2796.044434 4.8122E-14
2797.41626 5.8685E-14
2798.788086 8.7992E-14
2800.159668 1.0505E-13
2801.531494 8.9207E-14
2802.903076 6.1248E-14
2804.274902 7.924E-14
2805.646484 1.4554E-13
2807.018311 2.0692E-13
2808.389893 2.5072E-13
2809.761719 2.767E-13
2811.133301 2.7668E-13
2812.504883 2.7589E-13
2813.876465 2.8576E-13
2815.248047 2.978E-13
2816.619629 2.9914E-13
2817.991211 3.0212E-13
2819.362793 3.0346E-13
2820.734375 3.0439E-13
2822.105957 3.0535E-13
2823.477539 3.0688E-13
2824.849121 3.0506E-13
2826.220703 3.0293E-13
2827.592041 3.0988E-13
2828.963623 3.0431E-13
2830.335205 3.046E-13
2831.706543 3.0899E-13
2833.078125 3.0397E-13
2834.449463 3.0889E-13
2835.820801 3.0089E-13
2837.192383 3.0559E-13
2838.563721 3.2049E-13
2839.935059 3.114E-13
2841.306396 3.0571E-13
2842.677979 3.0835E-13
2844.049316 2.9552E-13
2845.420654 3.097E-13
2846.791992 3.0709E-13
2848.16333 3.028E-13
2849.534668 2.8152E-13
2850.905762 2.3792E-13
2852.2771 1.6898E-13
2853.648438 2.0613E-13
2855.019775 2.7974E-13
2856.390869 2.9695E-13
2857.762207 3.1185E-13
2859.133301 3.1184E-13
2860.504639 3.2289E-13
2861.875732 3.199E-13
2863.246826 3.1926E-13
2864.618164 3.2341E-13
2865.989258 3.16E-13
2867.360352 3.1347E-13
2868.731445 3.1513E-13
2870.102539 3.2075E-13
2871.473633 3.3247E-13
2872.844727 3.3536E-13
2874.21582 3.2607E-13
2875.586914 3.1481E-13
2876.958008 3.0585E-13
2878.329102 3.1067E-13
2879.700195 3.0834E-13
2881.071045 2.7811E-13
2882.442139 2.637E-13
2883.812988 3.1161E-13
2885.184082 3.2985E-13
2886.554932 3.3937E-13
2887.926025 3.4767E-13
2889.296875 3.3905E-13
2890.667725 3.2842E-13
2892.038818 3.2428E-13
2893.409668 3.1161E-13
2894.780518 3.3295E-13
2896.151367 3.4036E-13
2897.522217 3.522E-13
2898.893066 3.5318E-13
2900.263916 3.6005E-13
2901.634521 3.6086E-13
2903.005371 3.6439E-13
2904.376221 3.638E-13
2905.74707 3.7013E-13
2907.117676 3.5514E-13
2908.488525 3.4184E-13
2909.859131 3.4182E-13
2911.22998 3.5181E-13
2912.600586 3.6008E-13
2913.971191 3.6331E-13
2915.342041 3.7292E-13
2916.712646 3.6323E-13
2918.083252 3.5434E-13
2919.453857 3.5272E-13
2920.824463 3.6298E-13
2922.195068 3.6822E-13
2923.565674 3.5841E-13
2924.936279 3.5366E-13
2926.306641 3.5627E-13
2927.677246 3.5797E-13
2929.047852 3.4934E-13
2930.418213 3.6543E-13
2931.788818 3.7513E-13
2933.15918 3.7411E-13
2934.529785 3.7239E-13
2935.900146 3.6414E-13
2937.270752 3.5022E-13
2938.641113 3.485E-13
2940.011475 3.5641E-13
2941.381836 3.6018E-13
2942.752197 3.6896E-13
2944.122559 3.6353E-13
2945.49292 3.5823E-13
2946.863281 3.684E-13
2948.233643 3.5276E-13
2949.604004 3.5621E-13
2950.974121 3.7151E-13
2952.344482 3.7364E-13
2953.714844 3.6365E-13
2955.084961 3.6616E-13
2956.455322 3.7967E-13
2957.825439 3.769E-13
2959.195557 3.8495E-13
2960.565918 3.7585E-13
2961.936035 3.8856E-13
2963.306152 3.8748E-13
2964.67627 3.6779E-13
2966.046387 3.6036E-13
2967.416504 3.5966E-13
2968.786621 3.6383E-13
2970.156738 3.4845E-13
2971.526611 3.5472E-13
2972.896729 3.652E-13
2974.266846 3.7705E-13
2975.636719 3.9103E-13
2977.006836 3.9503E-13
2978.376709 3.9836E-13
2979.746826 3.8936E-13
2981.116699 3.7983E-13
2982.486572 3.7658E-13
2983.856689 3.6245E-13
2985.226562 3.5275E-13
2986.596436 3.6194E-13
2987.966309 3.6794E-13
2989.336182 3.8829E-13
2990.706055 3.9771E-13
2992.075684 3.9692E-13
2993.445557 3.9276E-13
2994.81543 3.8386E-13
2996.185059 3.9921E-13
2997.554932 4.0862E-13
2998.924561 4.0175E-13
3000.294434 3.8772E-13
3001.664062 3.7657E-13
3003.033691 3.7105E-13
3004.403564 3.9153E-13
3005.773193 4.0395E-13
3007.142822 3.9456E-13
3008.512451 3.8738E-13
3009.88208 4.0053E-13
3011.251709 4.1134E-13
3012.621338 4.0897E-13
3013.990723 4.093E-13
3015.360352 4.0288E-13
3016.72998 3.9482E-13
3018.099365 3.8553E-13
3019.468994 3.712E-13
3020.838379 3.5145E-13
3022.207764 3.7843E-13
3023.577393 4.076E-13
3024.946777 3.9736E-13
3026.316162 3.9386E-13
3027.685547 4.1407E-13
3029.054932 4.2268E-13
3030.424316 4.1284E-13
3031.793701 4.0765E-13
3033.163086 4.1864E-13
3034.532471 4.2765E-13
3035.901611 4.2762E-13
3037.270996 4.1257E-13
3038.640137 4.0868E-13
3040.009521 4.2379E-13
3041.378662 4.0455E-13
3042.747803 3.9907E-13
3044.117188 4.0969E-13
3045.486328 4.152E-13
3046.855469 4.1911E-13
3048.224609 4.1484E-13
3049.59375 4.2231E-13
3050.962891 4.2651E-13
3052.332031 4.3282E-13
3053.700928 4.2364E-13
3055.070068 4.1667E-13
3056.439209 4.1314E-13
3057.808105 3.9101E-13
3059.177246 3.9706E-13
3060.546143 4.1246E-13
3067.141113 3.5684E-13
3069.886963 3.7654E-13
3072.633057 3.9352E-13
3075.378906 3.9551E-13
3078.125 3.9453E-13
3080.87085 3.936E-13
3083.616943 3.9945E-13
3086.363037 3.8315E-13
3089.108887 3.5967E-13
3091.85498 3.6E-13
3094.601074 3.6779E-13
3097.347168 3.6624E-13
3100.093506 3.6541E-13
3102.8396 3.9047E-13
3105.585693 4.0218E-13
3108.331787 4.1104E-13
3111.078125 4.1254E-13
3113.824219 4.0575E-13
3116.570557 3.9331E-13
3119.31665 3.8667E-13
3122.062988 3.8414E-13
3124.809326 3.8551E-13
3127.555664 3.9964E-13
3130.302002 4.0806E-13
3133.04834 4.1004E-13
3135.794678 4.0971E-13
3138.541016 3.9971E-13
3141.287354 3.8517E-13
3144.033691 3.6251E-13
3146.780273 3.9947E-13
3149.526611 4.1094E-13
3152.272949 4.1206E-13
3155.019531 4.019E-13
3157.766113 3.9475E-13
3160.512451 3.9441E-13
3163.259033 4.1086E-13
3166.005615 4.2573E-13
3168.752197 4.3628E-13
3171.498779 4.4429E-13
3174.245361 4.4732E-13
3176.991943 4.3475E-13
3179.738525 4.1204E-13
3182.485107 4.1404E-13
3185.231689 4.2485E-13
3187.978516 4.3162E-13
3190.725098 4.1579E-13
3193.47168 4.2613E-13
3196.218506 4.3671E-13
3198.965332 4.4717E-13
3201.711914 4.5485E-13
3204.45874 4.6814E-13
3207.205566 4.5845E-13
3209.952393 4.3839E-13
3212.698975 4.4023E-13
3215.445801 4.4561E-13
3218.192627 4.5517E-13
3220.939453 4.5835E-13
3223.686523 4.5685E-13
3226.43335 4.4634E-13
3229.180176 4.4258E-13
3231.927002 4.4262E-13
3234.674072 4.4576E-13
3237.420898 4.5759E-13
3240.167969 4.7112E-13
3242.914795 4.7721E-13
3245.661865 4.7298E-13
3248.408936 4.6567E-13
3251.155762 4.7428E-13
3253.902832 4.7902E-13
3256.649902 5.0322E-13
3259.396973 5.0468E-13
3262.144043 4.9781E-13
3264.891113 5.0122E-13
3267.638184 5.0561E-13
3270.385254 4.9805E-13
3273.132324 4.9684E-13
3275.879639 4.9219E-13
3278.626709 4.8714E-13
3281.373779 4.956E-13
3284.121094 5.0419E-13
3286.868164 5.0371E-13
3289.615479 5.1834E-13
3292.362549 5.2613E-13
3295.109863 5.3108E-13
3297.857178 5.3188E-13
3300.604248 5.2992E-13
3303.351562 5.1829E-13
3306.098877 5.1726E-13
3308.846191 5.2572E-13
3311.593506 5.3099E-13
3314.34082 5.2402E-13
3317.088135 5.145E-13
3319.835449 5.1553E-13
3322.582764 5.1284E-13
3325.330322 5.1837E-13
3328.077637 5.2061E-13
3330.824951 5.2048E-13
3333.57251 5.2084E-13
3336.319824 5.2111E-13
3339.067383 5.1833E-13
3341.814697 5.1712E-13
3344.562256 5.2783E-13
3347.30957 5.1516E-13
3350.057129 5.178E-13
3352.804688 5.2897E-13
3355.552002 5.3552E-13
3358.299561 5.2015E-13
3361.047119 5.1085E-13
3363.794678 5.2829E-13
3366.542236 5.2228E-13
3369.289795 5.0933E-13
3372.037354 5.0505E-13
3374.784912 5.3121E-13
3377.532471 5.2414E-13
3380.280273 5.1534E-13
3383.027832 5.232E-13
3385.775391 5.2689E-13
3388.522949 5.3223E-13
3391.270752 5.2641E-13
3394.018311 5.3302E-13
3396.766113 5.5075E-13
3399.513672 5.5185E-13
3402.261475 5.4293E-13
3405.009033 5.3402E-13
3407.756836 5.3106E-13
3410.504639 5.2876E-13
3413.252441 5.2269E-13
3416.0 5.4259E-13
3418.747803 5.5491E-13
3421.495605 5.4627E-13
3424.243408 5.4753E-13
3426.991211 5.5088E-13
3429.739014 5.574E-13
3432.486816 5.5043E-13
3435.234619 5.4986E-13
3437.982422 5.3694E-13
3440.730225 5.2216E-13
3443.478027 5.2195E-13
3446.226074 5.4422E-13
3448.973877 5.4914E-13
3451.72168 5.4898E-13
3454.469727 5.5309E-13
3457.217529 5.5786E-13
3459.965332 5.4879E-13
3462.713379 5.5837E-13
3465.461182 5.5885E-13
3468.209229 5.6006E-13
3470.957275 5.6513E-13
3473.705078 5.4316E-13
3476.453125 5.461E-13
3479.201172 5.7157E-13
3481.948975 5.6973E-13
3484.697021 5.6829E-13
3487.445068 5.6091E-13
3490.193115 5.5437E-13
3492.941162 5.582E-13
3495.688965 5.5685E-13
3498.437012 5.6127E-13
3501.185059 5.6107E-13
3503.933105 5.6824E-13
3506.681152 5.6928E-13
3509.429199 5.5661E-13
3512.17749 5.5462E-13
3514.925537 5.6141E-13
3517.673584 5.6621E-13
3520.421631 5.5801E-13
3523.169678 5.5195E-13
3525.917969 5.505E-13
3528.666016 5.6526E-13
3531.414062 5.7704E-13
3534.162354 5.8608E-13
3536.9104 5.9293E-13
3539.658691 5.8923E-13
3542.406738 5.9187E-13
3545.155029 5.9701E-13
3547.903076 5.9532E-13
3550.651367 5.9474E-13
3553.399414 5.895E-13
3556.147705 5.8882E-13
3558.895752 5.8777E-13
3561.644043 5.8772E-13
3564.392334 5.7615E-13
3567.140625 5.721E-13
3569.888672 5.5961E-13
3572.636963 5.609E-13
3575.385254 5.7317E-13
3578.133545 5.7752E-13
3580.881836 5.6878E-13
3583.630127 5.6877E-13
3586.378174 5.518E-13
3589.126465 5.6787E-13
3591.874756 5.8357E-13
3594.623047 5.9047E-13
3597.371338 5.9667E-13
3600.119629 6.0201E-13
3602.868164 5.9536E-13
3605.616455 5.8662E-13
3608.364746 5.7815E-13
3611.113037 5.8402E-13
3613.861328 5.8946E-13
3616.609619 5.9057E-13
3619.358154 5.8697E-13
3622.106445 5.936E-13
3624.854736 6.0568E-13
3627.603027 6.0762E-13
3630.351562 5.9522E-13
3633.099854 5.9563E-13
3635.848145 6.0646E-13
3638.59668 6.0514E-13
3641.344971 6.0522E-13
3644.093506 5.9501E-13
3646.841797 5.9429E-13
3649.590088 5.9128E-13
3652.338623 6.1113E-13
3655.086914 6.2047E-13
3657.835449 6.2243E-13
3660.58374 6.2076E-13
3663.332275 6.2448E-13
3666.080811 6.2578E-13
3668.829102 6.216E-13
3671.577637 6.2429E-13
3674.325928 6.2225E-13
3677.074463 6.1591E-13
3679.822998 6.1309E-13
3682.571289 6.0876E-13
3685.319824 6.0188E-13
3688.068359 6.1143E-13
3690.816895 6.285E-13
3693.565186 6.3534E-13
3696.313721 6.4536E-13
3699.062256 6.4786E-13
3701.810791 6.483E-13
3704.559326 6.1689E-13
3707.307617 6.3093E-13
3710.056152 6.314E-13
3712.804688 6.3429E-13
3715.553223 6.879E-13
3718.301758 6.6923E-13
3721.050293 6.1085E-13
3723.798828 6.4143E-13
3726.547363 6.9177E-13
3729.295654 7.0375E-13
3732.044189 6.4807E-13
3734.792725 5.941E-13
3737.54126 6.458E-13
3740.289795 6.9482E-13
3743.03833 7.0805E-13
3745.786865 6.6573E-13
3748.5354 6.1646E-13
3751.283936 6.518E-13
3754.032471 6.9142E-13
3756.78125 7.3035E-13
3759.529785 7.1807E-13
3762.27832 7.3099E-13
3765.026855 7.28E-13
3767.775391 6.8686E-13
3770.523926 6.4056E-13
3773.272461 6.9488E-13
3776.020996 7.5152E-13
3778.769531 7.7995E-13
3781.518066 7.831E-13
3784.266846 7.7561E-13
3787.015381 7.6463E-13
3789.763916 7.6168E-13
3792.512451 7.4159E-13
3795.260986 6.8525E-13
3798.009521 6.3562E-13
3800.758301 7.0234E-13
3803.506836 7.5803E-13
3806.255371 7.605E-13
3809.003906 7.7526E-13
3811.752441 7.7479E-13
3814.500977 7.6419E-13
3817.249756 7.6924E-13
3819.998291 7.6921E-13
3822.746826 7.7185E-13
3825.495361 7.4316E-13
3828.244141 7.3675E-13
3830.992676 7.0866E-13
3833.741211 6.4489E-13
3836.489746 6.3307E-13
3839.238281 6.9187E-13
3841.987061 7.4863E-13
3844.735596 7.7184E-13
3847.484131 7.8443E-13
3850.232666 7.9115E-13
3852.981445 7.975E-13
3855.72998 7.9134E-13
3858.478516 7.776E-13
3861.227051 7.9644E-13
3863.97583 8.0808E-13
3866.724365 8.123E-13
3869.4729 8.002E-13
3872.221436 7.7004E-13
3874.970215 7.7305E-13
3877.71875 7.6227E-13
3880.467285 7.6637E-13
3883.21582 7.5996E-13
3885.9646 7.0363E-13
3888.713135 6.4098E-13
3891.46167 6.9107E-13
3894.210205 7.3386E-13
3896.95874 7.5254E-13
3899.70752 7.5957E-13
3902.456055 7.6417E-13
3905.20459 7.6846E-13
3907.953125 7.8917E-13
3910.70166 8.055E-13
3913.450439 7.996E-13
3916.198975 7.9483E-13
3918.94751 7.9141E-13
3921.696045 7.6393E-13
3924.44458 7.7767E-13
3927.193359 7.4803E-13
3929.941895 6.4383E-13
3932.69043 4.7371E-13
3935.438965 5.1177E-13
3938.1875 6.9459E-13
3940.936035 7.7351E-13
3943.68457 7.8516E-13
3946.43335 8.0411E-13
3949.181885 8.0981E-13
3951.93042 8.0881E-13
3954.678955 8.1042E-13
3957.42749 8.0433E-13
3960.176025 7.866E-13
3962.924561 7.485E-13
3965.673096 6.3219E-13
3968.421631 4.6944E-13
3971.170166 5.5858E-13
3973.918701 6.8313E-13
3976.667236 7.8181E-13
3979.415771 8.0575E-13
3982.164307 8.1669E-13
3984.912842 8.308E-13
3987.661377 8.3359E-13
3990.409912 8.3259E-13
3993.158447 8.4225E-13
3995.906982 8.4146E-13
3998.655518 8.3806E-13
4001.404053 8.4153E-13
4004.152588 8.3432E-13
4006.900879 8.3614E-13
4009.649414 8.5031E-13
4012.397949 8.4859E-13
4015.146484 8.494E-13
4017.89502 8.5513E-13
4020.643555 8.5555E-13
4023.391846 8.5361E-13
4026.140381 8.4914E-13
4028.888916 8.365E-13
4031.637451 8.3166E-13
4034.385742 8.336E-13
4037.134277 8.4807E-13
4039.882812 8.5636E-13
4042.631104 8.5767E-13
4045.379639 8.3941E-13
4048.128174 8.4793E-13
4050.876465 8.5383E-13
4053.625 8.5853E-13
4056.373291 8.5124E-13
4059.121826 8.5624E-13
4061.870361 8.5295E-13
4064.618652 8.4748E-13
4067.367188 8.4909E-13
4070.115479 8.571E-13
4072.86377 8.4461E-13
4075.612305 8.5093E-13
4078.360596 8.4782E-13
4081.109131 8.581E-13
4083.857422 8.6044E-13
4086.605713 8.5602E-13
4089.354248 8.5636E-13
4092.102539 8.4826E-13
4094.85083 8.2657E-13
4097.599121 8.0091E-13
4100.347656 7.322E-13
4103.096191 7.1455E-13
4105.844238 7.938E-13
4108.592773 8.1943E-13
4111.34082 8.3833E-13
4114.089355 8.5466E-13
4116.837402 8.5823E-13
4119.585938 8.5191E-13
4122.333984 8.5685E-13
4125.08252 8.6227E-13
4127.830566 8.6491E-13
4130.579102 8.5624E-13
4133.327148 8.5655E-13
4136.075684 8.6316E-13
4138.82373 8.6891E-13
4141.572266 8.6222E-13
4144.320312 8.5169E-13
4147.068848 8.6238E-13
4149.816895 8.7418E-13
4152.564941 8.7086E-13
4155.313477 8.6833E-13
4158.061523 8.7035E-13
4160.80957 8.736E-13
4163.558105 8.7272E-13
4166.306152 8.726E-13
4169.054199 8.7558E-13
4171.802734 8.6708E-13
4174.550781 8.5871E-13
4177.298828 8.5919E-13
4180.046875 8.5957E-13
4182.79541 8.6029E-13
4185.543457 8.5896E-13
4188.291504 8.547E-13
4191.039551 8.4687E-13
4193.787598 8.635E-13
4196.535645 8.547E-13
4199.28418 8.4641E-13
4202.032227 8.4109E-13
4204.780273 8.5492E-13
4207.52832 8.5944E-13
4210.276367 8.6189E-13
4213.024414 8.5717E-13
4215.772461 8.5446E-13
4218.520508 8.5512E-13
4221.268555 8.5157E-13
4224.016602 8.4376E-13
4226.764648 8.3413E-13
4229.512695 8.4973E-13
4232.260742 8.5241E-13
4235.008789 8.4925E-13
4237.756348 8.5006E-13
4240.504395 8.5958E-13
4243.252441 8.491E-13
4246.000488 8.4577E-13
4248.748535 8.3345E-13
4251.496582 8.3677E-13
4254.244141 8.4317E-13
4256.992188 8.4628E-13
4259.740234 8.5031E-13
4262.487793 8.5433E-13
4265.23584 8.6045E-13
4267.983887 8.4652E-13
4270.731934 8.3138E-13
4273.479492 8.2758E-13
4276.227539 8.3813E-13
4278.975098 8.4284E-13
4281.723145 8.4132E-13
4284.470703 8.3416E-13
4287.21875 8.2512E-13
4289.966797 8.1123E-13
4292.714355 8.0464E-13
4295.461914 8.0201E-13
4298.209961 7.8404E-13
4300.95752 7.605E-13
4303.705566 7.585E-13
4306.453125 7.5484E-13
4309.201172 7.4363E-13
4311.94873 7.5974E-13
4314.696289 8.0652E-13
4317.443848 8.4161E-13
4320.191895 8.5051E-13
4322.939453 8.3855E-13
4325.687012 8.2139E-13
4328.43457 8.4189E-13
4331.182617 8.5086E-13
4333.930176 8.419E-13
4336.677734 8.0493E-13
4339.425293 7.3272E-13
4342.172852 7.2821E-13
4344.92041 8.0492E-13
4347.667969 8.391E-13
4350.415527 8.5656E-13
4353.163086 8.4654E-13
4355.910645 8.5918E-13
4358.658203 8.6169E-13
4361.405762 8.6433E-13
4364.15332 8.7287E-13
4366.900879 8.6747E-13
4369.648438 8.6177E-13
4372.395996 8.609E-13
4375.143066 8.5631E-13
4377.890625 8.6256E-13
4380.638184 8.6748E-13
4383.385742 8.5205E-13
4386.132812 8.5716E-13
4388.880371 8.6079E-13
4391.62793 8.7057E-13
4394.375 8.6721E-13
4397.122559 8.6899E-13
4399.870117 8.6846E-13
4402.617188 8.6879E-13
4405.364746 8.6864E-13
4408.111816 8.7997E-13
4410.859375 8.8285E-13
4413.606445 8.8003E-13
4416.354004 8.6581E-13
4419.101074 8.767E-13
4421.848145 8.7643E-13
4424.595703 8.8072E-13
4427.342773 8.7835E-13
4430.089844 8.8003E-13
4432.837402 8.8579E-13
4435.584473 8.8515E-13
4438.331543 8.8355E-13
4441.078613 8.822E-13
4443.825684 8.7619E-13
4446.572754 8.8408E-13
4449.320312 8.6959E-13
4452.067383 8.8266E-13
4454.814453 8.7642E-13
4457.561523 8.8695E-13
4460.308594 8.8034E-13
4463.055664 8.8506E-13
4465.802734 8.8559E-13
4468.549316 8.7379E-13
4471.296387 8.8582E-13
4474.043457 8.865E-13
4476.790527 8.8741E-13
4479.537598 8.8952E-13
4482.28418 8.843E-13
4485.03125 8.8945E-13
4487.77832 8.9186E-13
4490.525391 8.9034E-13
4493.271973 8.8843E-13
4496.019043 8.9159E-13
4498.765625 8.8888E-13
4501.512695 8.8791E-13
4504.259277 8.9394E-13
4507.006348 8.9677E-13
4509.75293 8.9684E-13
4512.5 9.0005E-13
4515.246582 8.8398E-13
4517.993164 8.9204E-13
4520.740234 8.9236E-13
4523.486816 8.7547E-13
4526.233398 8.8367E-13
4528.97998 8.7829E-13
4531.727051 8.7899E-13
4534.473633 8.7815E-13
4537.220215 8.8468E-13
4539.966797 8.9027E-13
4542.713379 8.9416E-13
4545.459961 8.9117E-13
4548.206543 8.8329E-13
4550.953125 8.8357E-13
4553.699707 8.8501E-13
4556.446289 8.9125E-13
4559.192871 8.9468E-13
4561.939453 8.9419E-13
4564.685547 8.9E-13
4567.432129 8.9546E-13
4570.178711 8.9369E-13
4572.925293 8.8933E-13
4575.671387 8.9757E-13
4578.417969 9.0085E-13
4581.164062 8.9518E-13
4583.910645 8.8962E-13
4586.657227 8.9159E-13
4589.40332 8.9145E-13
4592.149414 8.9239E-13
4594.895996 8.9264E-13
4597.64209 8.9727E-13
4600.388672 8.978E-13
4603.134766 8.9716E-13
4605.880859 8.9576E-13
4608.626953 8.9715E-13
4611.373535 8.995E-13
4614.119629 8.9849E-13
4616.865723 8.9686E-13
4619.611816 8.9633E-13
4622.35791 8.906E-13
4625.104004 8.9942E-13
4627.850098 8.9612E-13
4630.596191 8.9526E-13
4633.342285 8.9662E-13
4636.088379 8.9821E-13
4638.834473 8.9951E-13
4641.580078 9.0802E-13
4644.326172 8.9158E-13
4647.072266 8.9461E-13
4649.818359 8.9804E-13
4652.563965 8.9143E-13
4655.310059 9.0137E-13
4658.055664 8.9958E-13
4660.801758 8.9499E-13
4663.547363 8.9952E-13
4666.293457 8.9951E-13
4669.039062 8.9434E-13
4671.785156 8.9623E-13
4674.530762 8.9551E-13
4677.276367 8.9923E-13
4680.022461 8.9759E-13
4682.768066 8.9945E-13
4685.513672 8.9345E-13
4688.259277 8.9134E-13
4691.004883 9.0122E-13
4693.750488 9.013E-13
4696.496094 8.9939E-13
4699.241699 9.0109E-13
4701.987305 8.9577E-13
4704.73291 8.907E-13
4707.478516 8.8563E-13
4710.224121 9.0038E-13
4712.969727 8.9736E-13
4715.714844 9.0103E-13
4718.460449 8.9473E-13
4721.206055 9.0109E-13
4723.951172 8.8933E-13
4726.696777 8.8627E-13
4729.441895 8.9325E-13
4732.1875 8.94E-13
4734.932617 8.9728E-13
4737.678223 8.962E-13
4740.42334 8.9326E-13
4743.168457 8.9508E-13
4745.914062 9.0214E-13
4748.65918 9.0536E-13
4751.404297 8.9971E-13
4754.149414 8.9729E-13
4756.894531 8.9214E-13
4759.639648 8.89E-13
4762.385254 8.9169E-13
4765.129883 8.9439E-13
4767.875 8.9938E-13
4770.620117 9.0017E-13
4773.365234 8.884E-13
4776.110352 8.9398E-13
4778.855469 8.9361E-13
4781.600098 8.9587E-13
4784.345215 8.9452E-13
4787.090332 8.9531E-13
4789.834961 8.9347E-13
4792.580078 8.8861E-13
4795.324707 8.9527E-13
4798.069824 8.9744E-13
4800.814453 8.9404E-13
4803.55957 8.9258E-13
4806.304199 8.9286E-13
4809.048828 8.9414E-13
4811.793457 9.0059E-13
4814.538574 8.9316E-13
4817.283203 8.8319E-13
4820.027832 8.8842E-13
4822.772461 8.9244E-13
4825.51709 8.9735E-13
4828.261719 8.9824E-13
4831.006348 8.9929E-13
4833.750977 8.9386E-13
4836.495117 8.9121E-13
4839.239746 8.8978E-13
4841.984375 8.9262E-13
4844.729004 8.9304E-13
4847.473145 8.848E-13
4850.217773 8.8186E-13
4852.961914 8.7747E-13
4855.706543 8.5421E-13
4858.450684 8.056E-13
4861.195312 7.5439E-13
4863.939453 7.7364E-13
4866.683594 8.3113E-13
4869.427734 8.6864E-13
4872.172363 8.7285E-13
4874.916504 8.7853E-13
4877.660645 8.7489E-13
4880.404785 8.8678E-13
4883.148926 8.8358E-13
4885.893066 8.7678E-13
4888.637207 8.882E-13
4891.381348 8.8474E-13
4894.125 8.8757E-13
4896.869141 8.8928E-13
4899.613281 8.8537E-13
4902.357422 8.8797E-13
4905.101074 8.9312E-13
4907.845215 8.9286E-13
4910.588867 8.8884E-13
4913.333008 8.9154E-13
4916.07666 8.9423E-13
4918.820312 8.7804E-13
4921.564453 8.8054E-13
4924.308105 8.8675E-13
4927.051758 8.8779E-13
4929.79541 8.904E-13
4932.539062 8.8862E-13
4935.282715 8.9463E-13
4938.026367 8.9358E-13
4940.77002 8.9512E-13
4943.513672 8.956E-13
4946.257324 8.9629E-13
4949.000977 8.9745E-13
4951.744629 8.9197E-13
4954.487793 8.9074E-13
4957.231445 8.8631E-13
4959.975098 8.8625E-13
4962.718262 8.9227E-13
4965.461914 8.9273E-13
4968.205078 8.9286E-13
4970.948242 8.9547E-13
4973.691895 8.9315E-13
4976.435059 8.9492E-13
4979.178223 8.9693E-13
4981.921387 8.8937E-13
4984.664551 8.901E-13
4987.407715 8.8964E-13
4990.150879 8.8924E-13
4992.894043 8.8965E-13
4995.637207 8.9289E-13
4998.380371 8.8779E-13
5001.123535 8.8381E-13
5003.866699 8.8756E-13
5006.609375 8.826E-13
5009.352539 8.8019E-13
5012.095215 8.8112E-13
5014.838379 8.8085E-13
5017.581055 8.8338E-13
5020.324219 8.8822E-13
5023.066895 8.9298E-13
5025.80957 8.8175E-13
5028.552734 8.826E-13
5031.29541 8.7159E-13
5034.038086 8.8266E-13
5036.780762 8.885E-13
5039.523438 8.8038E-13
5042.266113 8.7914E-13
5045.008789 8.878E-13
5047.751465 8.9158E-13
5050.493652 8.845E-13
5053.236328 8.8453E-13
5055.979004 8.9062E-13
5058.721191 8.8894E-13
5061.463867 8.8797E-13
5064.206055 8.8836E-13
5066.94873 8.8865E-13
5069.690918 8.8788E-13
5072.433105 8.9024E-13
5075.175781 8.8735E-13
5077.917969 8.8663E-13
5080.660156 8.8518E-13
5083.402344 8.7767E-13
5086.144531 8.8648E-13
5088.886719 8.8659E-13
5091.628906 8.8885E-13
5094.371094 8.7272E-13
5097.113281 8.7912E-13
5099.85498 8.8235E-13
5102.597168 8.8745E-13
5105.339355 8.8635E-13
5108.081055 8.8034E-13
5110.823242 8.7912E-13
5113.564941 8.8104E-13
5116.306641 8.8208E-13
5119.048828 8.8215E-13
5121.790527 8.8462E-13
5124.532227 8.7979E-13
5127.273926 8.7625E-13
5130.015625 8.8396E-13
5132.757324 8.8136E-13
5135.499023 8.7582E-13
5138.240723 8.7309E-13
5140.982422 8.7333E-13
5143.724121 8.8015E-13
5146.46582 8.8024E-13
5149.207031 8.811E-13
5151.94873 8.7722E-13
5154.689941 8.777E-13
5157.431641 8.8214E-13
5160.172852 8.8059E-13
5162.914551 8.7333E-13
5165.655762 8.6254E-13
5168.396973 8.346E-13
5171.138184 8.4863E-13
5173.879395 8.5024E-13
5176.620605 8.748E-13
5179.361816 8.7794E-13
5182.103027 8.6789E-13
5184.844238 8.6345E-13
5187.585449 8.6927E-13
5190.326172 8.7298E-13
5193.067383 8.7375E-13
5195.808594 8.7222E-13
5198.549316 8.7921E-13
5201.290527 8.7136E-13
5204.03125 8.6822E-13
5206.771973 8.7061E-13
5209.513184 8.7174E-13
5212.253906 8.7479E-13
5214.994629 8.7548E-13
5217.735352 8.7841E-13
5220.476074 8.7599E-13
5223.216797 8.7439E-13
5225.95752 8.696E-13
5228.698242 8.6877E-13
5231.438477 8.7044E-13
5234.179199 8.712E-13
5236.919922 8.7767E-13
5239.660156 8.8184E-13
5242.400879 8.8076E-13
5245.141113 8.7523E-13
5247.881348 8.7724E-13
5250.62207 8.7762E-13
5253.362305 8.7822E-13
5256.102539 8.776E-13
5258.842773 8.7882E-13
5261.583008 8.7318E-13
5264.323242 8.6742E-13
5267.063477 8.596E-13
5269.803711 8.4562E-13
5272.543945 8.6901E-13
5275.283691 8.7236E-13
5278.023926 8.743E-13
5280.763672 8.7475E-13
5283.503906 8.7001E-13
5286.243652 8.7663E-13
5288.983887 8.7857E-13
5291.723633 8.8031E-13
5294.463379 8.7271E-13
5297.203125 8.7669E-13
5299.942871 8.7002E-13
5302.682617 8.7355E-13
5305.422363 8.7748E-13
5308.162109 8.7886E-13
5310.901855 8.7437E-13
5313.641602 8.7041E-13
5316.380859 8.7108E-13
5319.120605 8.7532E-13
5321.859863 8.6808E-13
5324.599609 8.6469E-13
5327.338867 8.5667E-13
5330.078613 8.6288E-13
5332.817871 8.6636E-13
5335.557129 8.6895E-13
5338.296387 8.7068E-13
5341.035645 8.6344E-13
5343.774902 8.6844E-13
5346.51416 8.6842E-13
5349.253418 8.72E-13
5351.992676 8.7611E-13
5354.731445 8.6339E-13
5357.470703 8.7317E-13
5360.209473 8.7126E-13
5362.94873 8.6698E-13
5365.6875 8.7415E-13
5368.426758 8.6796E-13
5371.165527 8.5566E-13
5373.904297 8.6094E-13
5376.643066 8.6818E-13
5379.381836 8.6991E-13
5382.120605 8.6852E-13
5384.859375 8.6644E-13
5387.598145 8.6631E-13
5390.336426 8.6732E-13
5393.075195 8.6476E-13
5395.813965 8.5856E-13
5398.552246 8.5216E-13
5401.291016 8.5213E-13
5404.029297 8.5678E-13
5406.767578 8.5923E-13
5409.506348 8.639E-13
5412.244629 8.6851E-13
5414.98291 8.6972E-13
5417.721191 8.7129E-13
5420.459473 8.6868E-13
5423.197754 8.7017E-13
5425.935547 8.6462E-13
5428.673828 8.6138E-13
5431.412109 8.6052E-13
5434.149902 8.5539E-13
5436.888184 8.6154E-13
5439.625977 8.5976E-13
5442.364258 8.6071E-13
5445.102051 8.6427E-13
5447.839844 8.5605E-13
5453.833496 8.5137E-13
5458.704102 8.5209E-13
5463.574707 8.6387E-13
5468.445312 8.5797E-13
5473.316406 8.5481E-13
5478.187012 8.5737E-13
5483.058105 8.6062E-13
5487.928711 8.5802E-13
5492.799805 8.596E-13
5497.670898 8.53E-13
5502.541992 8.5273E-13
5507.413086 8.5612E-13
5512.28418 8.5481E-13
5517.155762 8.586E-13
5522.026855 8.5836E-13
5526.898438 8.5988E-13
5531.769531 8.5603E-13
5536.641113 8.5384E-13
5541.512695 8.4459E-13
5546.384277 8.5429E-13
5551.255859 8.5864E-13
5556.127441 8.5727E-13
5560.999512 8.516E-13
5565.871094 8.4872E-13
5570.743164 8.5213E-13
5575.614746 8.4923E-13
5580.486816 8.534E-13
5585.358887 8.4806E-13
5590.230957 8.4551E-13
5595.103027 8.4658E-13
5599.975098 8.4588E-13
5604.847168 8.4826E-13
5609.719727 8.4678E-13
5614.591797 8.4551E-13
5619.464355 8.4439E-13
5624.336914 8.5132E-13
5629.208984 8.5126E-13
5634.081543 8.4336E-13
5638.954102 8.3927E-13
5643.827148 8.4416E-13
5648.699707 8.4624E-13
5653.572266 8.4266E-13
5658.445312 8.4446E-13
5663.317871 8.4366E-13
5668.190918 8.4291E-13
5673.063965 8.4248E-13
5677.937012 8.4145E-13
5682.810059 8.4213E-13
5687.683105 8.3955E-13
5692.556152 8.4292E-13
5697.429199 8.4152E-13
5702.302734 8.4167E-13
5707.175781 8.4321E-13
5712.049316 8.3712E-13
5716.922363 8.416E-13
5721.795898 8.3812E-13
5726.669434 8.3708E-13
5731.542969 8.3601E-13
5736.416504 8.3772E-13
5741.290039 8.3924E-13
5746.164062 8.3688E-13
5751.037598 8.372E-13
5755.911621 8.3965E-13
5760.785156 8.3484E-13
5765.65918 8.3814E-13
5770.533203 8.3459E-13
5775.407227 8.3727E-13
5780.28125 8.385E-13
5785.155273 8.3221E-13
5790.029297 8.3268E-13
5794.90332 8.3544E-13
5799.777832 8.3192E-13
5804.651855 8.3295E-13
5809.526367 8.2767E-13
5814.400879 8.3008E-13
5819.275391 8.3491E-13
5824.149414 8.315E-13
5829.023926 8.3037E-13
5833.898926 8.2533E-13
5838.773438 8.2879E-13
5843.647949 8.2635E-13
5848.522461 8.2762E-13
5853.397461 8.2126E-13
5858.271973 8.1604E-13
5863.146973 8.2156E-13
5868.021973 8.2448E-13
5872.896973 8.2691E-13
5877.771973 8.2448E-13
5882.646973 8.2334E-13
5887.521973 8.1431E-13
5892.396973 8.0314E-13
5897.271973 8.0735E-13
5902.147461 8.1537E-13
5907.022461 8.161E-13
5911.897949 8.2246E-13
5916.773438 8.2107E-13
5921.648438 8.221E-13
5926.523926 8.1395E-13
5931.399414 8.1754E-13
5936.274902 8.1879E-13
5941.150879 8.2147E-13
5946.026367 8.1131E-13
5950.901855 8.1789E-13
5955.777832 8.1813E-13
5960.65332 8.1585E-13
5965.529297 8.1676E-13
5970.404785 8.1623E-13
5975.280762 8.1646E-13
5980.156738 8.1658E-13
5985.032715 8.143E-13
5989.908691 8.1476E-13
5994.784668 8.1157E-13
5999.661133 8.1218E-13
6004.537109 8.1044E-13
6009.413086 8.0903E-13
6014.289551 8.0902E-13
6019.165527 8.1144E-13
6024.041992 8.109E-13
6028.918457 8.088E-13
6033.794922 8.0963E-13
6038.671387 8.0659E-13
6043.547852 8.1758E-13
6048.424316 8.0745E-13
6053.300781 8.0683E-13
6058.177246 8.0333E-13
6063.054199 8.0548E-13
6067.930664 8.0373E-13
6072.807617 8.0234E-13
6077.684082 8.0195E-13
6082.561035 8.0767E-13
6087.437988 8.0019E-13
6092.314941 7.9665E-13
6097.191895 7.9796E-13
6102.068848 7.9974E-13
6106.945801 8.0225E-13
6111.822754 7.9632E-13
6116.699707 7.9537E-13
6121.577148 7.9554E-13
6126.454102 7.9163E-13
6131.331543 7.9464E-13
6136.208984 7.994E-13
6141.085938 7.9647E-13
6145.963379 7.9665E-13
6150.84082 7.9441E-13
6155.718262 7.9441E-13
6160.595703 7.9463E-13
6165.473145 7.9223E-13
6170.350586 7.9161E-13
6175.228516 7.9557E-13
6180.105957 7.949E-13
6184.983398 7.88E-13
6189.861328 7.9408E-13
6194.739258 7.9081E-13
6199.616699 7.9206E-13
6204.494629 7.9192E-13
6209.372559 7.8904E-13
6214.250488 7.9056E-13
6219.128418 7.8674E-13
6224.006348 7.8753E-13
6228.884277 7.8773E-13
6233.762207 7.9175E-13
6238.640625 7.9106E-13
6243.518555 7.8362E-13
6248.396484 7.8473E-13
6253.274902 7.8246E-13
6258.15332 7.8696E-13
6263.03125 7.8182E-13
6267.909668 7.7901E-13
6272.788086 7.872E-13
6277.666504 7.8507E-13
6282.544922 7.8335E-13
6287.42334 7.817E-13
6292.301758 7.8437E-13
6297.180176 7.8508E-13
6302.059082 7.8725E-13
6306.9375 7.7762E-13
6311.815918 7.7854E-13
6316.694824 7.7472E-13
6321.57373 7.6826E-13
6326.452148 7.6569E-13
6331.331055 7.6313E-13
6336.209961 7.6148E-13
6341.088867 7.6959E-13
6345.967773 7.7446E-13
6350.84668 7.742E-13
6355.725586 7.7826E-13
6360.604492 7.7492E-13
6365.483398 7.7348E-13
6370.362793 7.6925E-13
6375.241699 7.6974E-13
6380.120605 7.6899E-13
6385.0 7.724E-13
6389.879395 7.7288E-13
6394.758301 7.7067E-13
6399.637695 7.7562E-13
6404.51709 7.6929E-13
6409.396484 7.6262E-13
6414.275879 7.6196E-13
6419.155273 7.6523E-13
6424.034668 7.6596E-13
6428.914062 7.6428E-13
6433.793457 7.6462E-13
6438.672852 7.6223E-13
6443.552734 7.6052E-13
6448.432129 7.5189E-13
6453.312012 7.5813E-13
6458.191406 7.5813E-13
6463.071289 7.5677E-13
6467.951172 7.6093E-13
6472.830566 7.6032E-13
6477.710449 7.583E-13
6482.590332 7.5474E-13
6487.470215 7.5847E-13
6492.350098 7.5667E-13
6497.22998 7.572E-13
6502.109863 7.5795E-13
6506.990234 7.5649E-13
6511.870117 7.5717E-13
6516.75 7.5693E-13
6521.630371 7.4973E-13
6526.510254 7.4982E-13
6531.390625 7.5615E-13
6536.270508 7.5663E-13
6541.150879 7.5163E-13
6546.03125 7.4439E-13
6550.911133 7.3658E-13
6555.791504 7.0797E-13
6560.671875 6.8082E-13
6565.552246 6.7216E-13
6570.432617 7.0746E-13
6575.312988 7.2784E-13
6580.193848 7.4132E-13
6585.074219 7.44E-13
6589.95459 7.508E-13
6594.834961 7.4408E-13
6599.71582 7.5064E-13
6604.596191 7.4685E-13
6609.477051 7.4861E-13
6614.357422 7.4631E-13
6619.238281 7.4814E-13
6624.119141 7.4708E-13
6629.0 7.4865E-13
6633.880371 7.4044E-13
6638.76123 7.3886E-13
6643.64209 7.3952E-13
6648.522949 7.3956E-13
6653.403809 7.4209E-13
6658.284668 7.413E-13
6663.166016 7.4244E-13
6668.046875 7.4138E-13
6672.927734 7.4121E-13
6677.808594 7.393E-13
6682.689941 7.3971E-13
6687.570801 7.4014E-13
6692.452148 7.3895E-13
6697.333008 7.3738E-13
6702.214355 7.3505E-13
6707.095703 7.3291E-13
6711.976562 7.3106E-13
6716.85791 7.3154E-13
6721.739258 7.3031E-13
6726.620605 7.2809E-13
6731.501953 7.3116E-13
6736.383301 7.3299E-13
6741.264648 7.3421E-13
6746.145996 7.3479E-13
6751.027344 7.3247E-13
6755.908691 7.3224E-13
6760.790527 7.2962E-13
6765.671875 7.3168E-13
6770.553223 7.2672E-13
6775.435059 7.3011E-13
6780.316406 7.289E-13
6785.198242 7.2497E-13
6790.07959 7.2134E-13
6794.961426 7.2228E-13
6799.843262 7.2462E-13
6804.725098 7.2284E-13
6809.606445 7.2221E-13
6814.488281 7.2421E-13
6819.370117 7.2224E-13
6824.251953 7.2214E-13
6829.133789 7.2264E-13
6834.015625 7.204E-13
6838.897461 7.1787E-13
6843.779297 7.1965E-13
6848.661133 7.1776E-13
6853.543457 7.1665E-13
6858.425293 7.1387E-13
6863.307129 7.1305E-13
6868.189453 7.1836E-13
6873.071289 7.1754E-13
6877.953125 7.1575E-13
6882.835449 7.1332E-13
6887.717773 7.1488E-13
6892.599609 7.1304E-13
6897.481934 7.1332E-13
6902.364258 7.1299E-13
6907.246094 7.1368E-13
6912.128418 7.1092E-13
6917.010742 7.1254E-13
6921.893066 7.0859E-13
6926.775391 7.0784E-13
6931.657715 7.1011E-13
6936.540039 7.0859E-13
6941.422363 7.0805E-13
6946.304688 7.0754E-13
6951.187012 7.0289E-13
6956.069336 7.0298E-13
6960.95166 7.0534E-13
6965.834473 7.0851E-13
6970.716797 7.0519E-13
6975.599121 7.0098E-13
6980.481934 7.0456E-13
6985.364258 7.0543E-13
6990.24707 6.9995E-13
6995.129395 7.0332E-13
7000.012207 7.0004E-13
7004.894531 6.9946E-13
7009.777344 6.9948E-13
7014.660156 7.0318E-13
7019.54248 6.9858E-13
7024.425293 6.9964E-13
7029.308105 6.9597E-13
7034.190918 6.9745E-13
7039.07373 6.968E-13
7043.956543 6.978E-13
7048.839355 6.9218E-13
7053.722168 6.9536E-13
7058.60498 6.9589E-13
7063.487793 6.9482E-13
7068.370605 6.9439E-13
7073.253418 6.9062E-13
7078.13623 6.9088E-13
7083.019531 6.9311E-13
7087.902344 6.8745E-13
7092.785156 6.9004E-13
7097.668457 6.8969E-13
7102.55127 6.8797E-13
7107.434082 6.8838E-13
7112.317383 6.8523E-13
7117.200195 6.8691E-13
7122.083496 6.8742E-13
7126.966309 6.8734E-13
7131.849609 6.8424E-13
7136.73291 6.8339E-13
7141.615723 6.8355E-13
7146.499023 6.8561E-13
7151.382324 6.8511E-13
7156.265137 6.8387E-13
7161.148438 6.8242E-13
7166.031738 6.8394E-13
7170.915039 6.7885E-13
7175.79834 6.8036E-13
7180.681641 6.7774E-13
7185.564941 6.7825E-13
7190.448242 6.7816E-13
7195.331543 6.7813E-13
7200.214844 6.7839E-13
7205.098145 6.8179E-13
7209.981445 6.814E-13
7214.864746 6.8093E-13
7219.748047 6.766E-13
7224.631836 6.753E-13
7229.515137 6.7974E-13
7234.398438 6.7571E-13
7239.281738 6.733E-13
7244.165527 6.7155E-13
7249.048828 6.6809E-13
7253.932129 6.7001E-13
7258.815918 6.6984E-13
7263.699219 6.6992E-13
7268.583008 6.6955E-13
7273.466309 6.7285E-13
7278.350098 6.706E-13
7283.233398 6.7117E-13
7288.117188 6.6654E-13
7293.000977 6.6649E-13
7297.884277 6.6959E-13
7302.768066 6.6471E-13
7307.651855 6.6217E-13
7312.535156 6.6114E-13
7317.418945 6.6235E-13
7322.302734 6.6027E-13
7327.186523 6.6362E-13
7332.070312 6.6367E-13
7336.953613 6.6218E-13
7341.837402 6.6245E-13
7346.721191 6.5805E-13
7351.60498 6.6088E-13
7356.48877 6.5921E-13
7361.372559 6.6367E-13
7366.256348 6.6004E-13
7371.140137 6.5744E-13
7376.023926 6.5972E-13
7380.907715 6.5919E-13
7385.791504 6.5993E-13
7390.675293 6.5479E-13
7395.559082 6.5633E-13
7400.443359 6.5503E-13
7405.327148 6.5298E-13
7410.210938 6.5127E-13
7415.094727 6.5389E-13
7419.979004 6.5388E-13
7424.862793 6.5193E-13
7429.746582 6.4955E-13
7434.630371 6.5237E-13
7439.514648 6.5254E-13
7444.398438 6.5167E-13
7449.282227 6.503E-13
7454.166504 6.5038E-13
7459.050293 6.4852E-13
7463.93457 6.507E-13
7468.818359 6.4784E-13
7473.702637 6.4774E-13
7478.586426 6.4731E-13
7483.470215 6.4613E-13
7488.354492 6.4409E-13
7493.23877 6.4444E-13
7498.122559 6.4133E-13
7503.006836 6.417E-13
7507.890625 6.4015E-13
7512.774902 6.423E-13
7517.658691 6.432E-13
7522.542969 6.4222E-13
7527.427246 6.4009E-13
7532.311035 6.4067E-13
7537.195312 6.3929E-13
7542.07959 6.3942E-13
7546.963379 6.3865E-13
7551.847656 6.3726E-13
7556.731934 6.3835E-13
7561.616211 6.375E-13
7566.5 6.3608E-13
7571.384277 6.3466E-13
7576.268555 6.3326E-13
7581.152832 6.3488E-13
7586.037109 6.3657E-13
7590.921387 6.3619E-13
7595.805176 6.3098E-13
7600.689453 6.333E-13
7605.57373 6.2974E-13
7610.458008 6.2904E-13
7615.342285 6.2793E-13
7620.226562 6.3142E-13
7625.11084 6.2968E-13
7629.995117 6.2951E-13
7634.879395 6.3008E-13
7639.763672 6.2796E-13
7644.647949 6.2891E-13
7649.531738 6.2692E-13
7654.416016 6.2524E-13
7659.300293 6.2488E-13
7664.18457 6.2349E-13
7669.068848 6.2424E-13
7673.953613 6.265E-13
7678.837891 6.2685E-13
7683.722168 6.2385E-13
7688.606445 6.2393E-13
7693.490723 6.2045E-13
7698.375 6.2305E-13
7703.259277 6.2106E-13
7708.143555 6.2174E-13
7713.027832 6.2188E-13
7717.912109 6.1852E-13
7722.796387 6.215E-13
7727.680664 6.2064E-13
7732.564941 6.2258E-13
7737.449219 6.2238E-13
7742.333984 6.1784E-13
7747.218262 6.138E-13
7752.102539 6.1751E-13
7756.986816 6.1368E-13
7761.871094 6.2012E-13
7766.755371 6.1696E-13
7771.639648 6.1562E-13
7776.524414 6.1407E-13
7781.408691 6.1399E-13
7786.292969 6.1287E-13
7791.177246 6.1199E-13
7796.061523 6.0935E-13
7800.945801 6.1128E-13
7805.830566 6.1181E-13
7810.714844 6.1183E-13
7815.599121 6.1081E-13
7820.483398 6.1042E-13
7825.367676 6.1051E-13
7830.252441 6.1331E-13
7835.136719 6.0961E-13
7840.020996 6.1025E-13
7844.905273 6.0741E-13
7849.789551 6.0184E-13
7854.673828 6.0466E-13
7859.558594 6.037E-13
7864.442871 6.0406E-13
7869.327148 6.0514E-13
7874.211426 5.9884E-13
7879.095703 5.9934E-13
7883.980469 6.0226E-13
7888.864746 6.0442E-13
7893.749023 6.058E-13
7898.633301 6.0782E-13
7903.517578 6.093E-13
7908.401855 6.0343E-13
7913.286621 5.9706E-13
7918.170898 5.9927E-13
7923.055176 5.9648E-13
7927.939453 5.9745E-13
7932.82373 5.9614E-13
7937.708008 5.9605E-13
7942.592773 5.944E-13
7947.477051 5.9186E-13
7952.361328 5.9651E-13
7957.245605 5.9054E-13
7962.129883 5.9075E-13
7967.01416 5.925E-13
7971.898438 5.9139E-13
7976.783203 5.9668E-13
7981.66748 5.9491E-13
7986.551758 5.9559E-13
7991.436035 5.9309E-13
7996.320312 5.8932E-13
8001.20459 5.8697E-13
8006.088867 5.8482E-13
8010.973145 5.8799E-13
8015.857422 5.8788E-13
8020.741699 5.9028E-13
8025.625977 5.9135E-13
8030.510254 5.9409E-13
8035.394531 5.8585E-13
8040.278809 5.8233E-13
8045.163574 5.8452E-13
8050.047852 5.8184E-13
8054.932129 5.8108E-13
8059.816406 5.8114E-13
8064.700195 5.8119E-13
8069.584473 5.8336E-13
8074.46875 5.7957E-13
8079.353027 5.7919E-13
8084.237305 5.8075E-13
8089.121582 5.7673E-13
8094.005859 5.7979E-13
8098.890137 5.7763E-13
8103.774414 5.7728E-13
8108.658691 5.8122E-13
8113.542969 5.776E-13
8118.427246 5.78E-13
8123.311035 5.789E-13
8128.195312 5.7803E-13
8133.07959 5.7891E-13
8137.963867 5.7322E-13
8142.848145 5.7227E-13
8147.731934 5.7237E-13
8152.616211 5.7094E-13
8157.500488 5.7333E-13
8162.384766 5.7264E-13
8167.268555 5.723E-13
8172.152832 5.7025E-13
8177.037109 5.7214E-13
8181.920898 5.6979E-13
8186.805176 5.686E-13
8191.689453 5.6984E-13
8196.573242 5.668E-13
8201.457031 5.6785E-13
8206.341797 5.6691E-13
8211.225586 5.6728E-13
8216.109375 5.6512E-13
8220.994141 5.6506E-13
8225.87793 5.6495E-13
8230.761719 5.6254E-13
8235.645508 5.6095E-13
8240.530273 5.6038E-13
8245.414062 5.6163E-13
8250.297852 5.6276E-13
8255.181641 5.6176E-13
8260.06543 5.6036E-13
8264.950195 5.587E-13
8269.833984 5.5897E-13
8274.717773 5.5935E-13
8279.601562 5.6111E-13
8284.485352 5.596E-13
8289.369141 5.5757E-13
8294.253906 5.539E-13
8299.137695 5.5709E-13
8304.021484 5.5722E-13
8308.905273 5.5765E-13
8313.789062 5.5734E-13
8318.672852 5.572E-13
8323.556641 5.5416E-13
8328.44043 5.5079E-13
8333.324219 5.5249E-13
8338.208008 5.5268E-13
8343.091797 5.4992E-13
8347.975586 5.5353E-13
8352.859375 5.5185E-13
8357.743164 5.4856E-13
8362.626953 5.4504E-13
8367.510742 5.4423E-13
8372.394531 5.4877E-13
8377.27832 5.4872E-13
8382.162109 5.4973E-13
8387.045898 5.523E-13
8391.929688 5.4718E-13
8396.813477 5.5082E-13
8401.697266 5.504E-13
8406.580078 5.4625E-13
8411.463867 5.4645E-13
8416.347656 5.4743E-13
8421.231445 5.4591E-13
8426.115234 5.4823E-13
8430.998047 5.4445E-13
8435.881836 5.4555E-13
8440.765625 5.3784E-13
8445.649414 5.3709E-13
8450.532227 5.3914E-13
8455.416016 5.3754E-13
8460.299805 5.3826E-13
8465.183594 5.4238E-13
8470.066406 5.4489E-13
8474.950195 5.4155E-13
8479.833984 5.4033E-13
8484.716797 5.3704E-13
8489.600586 5.3842E-13
8494.483398 5.3636E-13
8499.367188 5.2881E-13
8504.250977 5.3006E-13
8509.133789 5.3549E-13
8514.017578 5.3544E-13
8518.900391 5.345E-13
8523.78418 5.3065E-13
8528.666992 5.2656E-13
8533.550781 5.2357E-13
8538.433594 5.179E-13
8543.317383 5.1574E-13
8548.200195 5.1579E-13
8553.083008 5.292E-13
8557.966797 5.3066E-13
8562.849609 5.3238E-13
8567.733398 5.3801E-13
8572.616211 5.3593E-13
8577.499023 5.383E-13
8582.381836 5.3393E-13
8587.265625 5.3271E-13
8592.148438 5.304E-13
8597.03125 5.2769E-13
8601.915039 5.2375E-13
8606.797852 5.2181E-13
8611.680664 5.259E-13
8616.563477 5.2672E-13
8621.446289 5.2976E-13
8626.329102 5.236E-13
8631.212891 5.2456E-13
8636.095703 5.244E-13
8640.978516 5.2239E-13
8645.861328 5.2369E-13
8650.744141 5.2239E-13
8655.626953 5.2157E-13
8660.509766 5.0619E-13
8665.392578 5.0342E-13
8670.275391 5.1079E-13
8675.158203 5.1497E-13
8680.041016 5.1718E-13
8684.923828 5.2015E-13
8689.806641 5.189E-13
8694.688477 5.1987E-13
8699.571289 5.2182E-13
8704.454102 5.2271E-13
8709.336914 5.2308E-13
8714.219727 5.1736E-13
8719.102539 5.1724E-13
8723.984375 5.1571E-13
8728.867188 5.1346E-13
8733.75 5.1403E-13
8738.631836 5.1542E-13
8743.514648 5.1455E-13
8748.397461 5.1073E-13
8753.279297 5.1205E-13
8758.162109 5.1254E-13
8763.044922 5.1773E-13
8767.926758 5.1782E-13
8772.80957 5.1771E-13
8777.691406 5.1465E-13
8782.574219 5.1458E-13
8787.456055 5.1066E-13
8792.338867 5.0986E-13
8797.220703 5.0978E-13
8802.102539 5.0797E-13
8806.985352 5.0912E-13
8811.867188 5.113E-13
8816.75 5.0881E-13
8821.631836 5.1014E-13
8826.513672 5.0773E-13
8831.395508 5.0814E-13
8836.27832 5.0912E-13
8841.160156 5.0739E-13
8846.041992 5.0956E-13
8850.923828 5.064E-13
8855.805664 5.0462E-13
8860.688477 4.9789E-13
8865.570312 4.9863E-13
8870.452148 5.003E-13
8875.333984 5.019E-13
8880.21582 5.0262E-13
8885.097656 5.0319E-13
8889.979492 5.0428E-13
8894.861328 5.0142E-13
8899.743164 4.9812E-13
8904.625 4.97E-13
8909.506836 4.9895E-13
8914.387695 4.9952E-13
8919.269531 5.0359E-13
8924.151367 5.059E-13
8929.033203 5.0243E-13
8933.915039 4.9964E-13
8938.795898 4.9535E-13
8943.677734 4.9125E-13
8948.55957 4.9498E-13
8953.44043 4.963E-13
8958.322266 5.0072E-13
8963.204102 4.9885E-13
8968.084961 4.9688E-13
8972.966797 4.933E-13
8977.847656 4.9436E-13
8982.729492 4.9591E-13
8987.610352 4.9224E-13
8992.492188 4.9514E-13
8997.373047 4.9007E-13
9002.253906 4.9348E-13
9007.135742 4.8936E-13
9012.016602 4.8517E-13
9016.897461 4.8452E-13
9021.779297 4.8856E-13
9026.660156 4.9178E-13
9031.541016 4.9157E-13
9036.421875 4.9398E-13
9041.302734 4.908E-13
9046.18457 4.8869E-13
9051.06543 4.8835E-13
9055.946289 4.856E-13
9060.827148 4.8627E-13
9065.708008 4.8779E-13
9070.588867 4.8497E-13
9075.469727 4.9002E-13
9080.350586 4.891E-13
9085.231445 4.8425E-13
9090.111328 4.8303E-13
9094.992188 4.8106E-13
9099.873047 4.8282E-13
9104.753906 4.8206E-13
9109.634766 4.8452E-13
9114.514648 4.846E-13
9119.395508 4.8099E-13
9124.276367 4.782E-13
9129.15625 4.7619E-13
9134.037109 4.8173E-13
9138.916992 4.8232E-13
9143.797852 4.8196E-13
9148.677734 4.8612E-13
9153.558594 4.843E-13
9158.438477 4.8821E-13
9163.319336 4.8583E-13
9168.199219 4.7961E-13
9173.080078 4.757E-13
9177.959961 4.7643E-13
9182.839844 4.759E-13
9187.719727 4.8031E-13
9192.600586 4.8105E-13
9197.480469 4.8127E-13
9202.360352 4.7854E-13
9207.240234 4.7479E-13
9212.120117 4.7132E-13
9217.0 4.6656E-13
9221.879883 4.7011E-13
9226.759766 4.69E-13
9231.639648 4.6962E-13
9236.519531 4.7104E-13
9241.399414 4.7071E-13
9246.279297 4.6627E-13
9251.15918 4.6679E-13
9256.039062 4.6907E-13
9260.917969 4.7105E-13
9265.797852 4.6709E-13
9270.677734 4.6508E-13
9275.556641 4.6682E-13
9280.436523 4.6784E-13
9285.316406 4.6987E-13
9290.195312 4.7731E-13
9295.075195 4.7417E-13
9299.954102 4.7143E-13
9304.833984 4.6911E-13
9309.712891 4.6574E-13
9314.592773 4.6308E-13
9319.47168 4.6208E-13
9324.350586 4.6218E-13
9329.230469 4.6075E-13
9334.109375 4.6235E-13
9338.988281 4.6166E-13
9343.867188 4.5798E-13
9348.746094 4.5715E-13
9353.625 4.5744E-13
9358.503906 4.6183E-13
9363.383789 4.6027E-13
9368.262695 4.5905E-13
9373.140625 4.5875E-13
9378.019531 4.5801E-13
9382.898438 4.5756E-13
9387.777344 4.5542E-13
9392.65625 4.5892E-13
9397.535156 4.5861E-13
9402.414062 4.5846E-13
9407.291992 4.564E-13
9412.170898 4.5679E-13
9417.049805 4.5542E-13
9421.927734 4.5201E-13
9426.806641 4.5499E-13
9431.68457 4.5586E-13
9436.563477 4.5546E-13
9441.441406 4.588E-13
9446.320312 4.5759E-13
9451.198242 4.5411E-13
9456.076172 4.5088E-13
9460.955078 4.5315E-13
9465.833008 4.5439E-13
9470.710938 4.5487E-13
9475.588867 4.5492E-13
9480.466797 4.5241E-13
9485.344727 4.4946E-13
9490.222656 4.5078E-13
9495.100586 4.5031E-13
9499.978516 4.5196E-13
9504.856445 4.469E-13
9509.734375 4.4821E-13
9514.612305 4.4853E-13
9519.490234 4.4638E-13
9524.368164 4.4185E-13
9529.246094 4.4343E-13
9534.123047 4.4484E-13
9539.000977 4.4337E-13
9543.878906 4.4127E-13
9548.755859 4.3742E-13
9553.633789 4.3771E-13
9558.510742 4.3911E-13
9563.388672 4.4385E-13
9568.265625 4.429E-13
9573.142578 4.4369E-13
9578.020508 4.4592E-13
9582.897461 4.3952E-13
9587.774414 4.4151E-13
9592.652344 4.4321E-13
9597.529297 4.4442E-13
9602.40625 4.4455E-13
9607.283203 4.4105E-13
9612.160156 4.3949E-13
9617.037109 4.4573E-13
9621.914062 4.3869E-13
9626.791016 4.4051E-13
9631.667969 4.3787E-13
9636.544922 4.3874E-13
9641.420898 4.3966E-13
9646.297852 4.3351E-13
9651.174805 4.3587E-13
9656.051758 4.3474E-13
9660.927734 4.3305E-13
9665.804688 4.3324E-13
9670.680664 4.3487E-13
9675.557617 4.3453E-13
9680.433594 4.3316E-13
9685.310547 4.3465E-13
9690.186523 4.3316E-13
9695.0625 4.346E-13
9699.939453 4.3846E-13
9704.81543 4.3841E-13
9709.691406 4.3031E-13
9714.567383 4.3195E-13
9719.443359 4.3204E-13
9724.319336 4.2709E-13
9729.195312 4.3103E-13
9734.071289 4.3243E-13
9738.947266 4.3047E-13
9743.823242 4.3246E-13
9748.699219 4.3117E-13
9753.575195 4.3113E-13
9758.450195 4.3277E-13
9763.326172 4.3155E-13
9768.202148 4.3262E-13
9773.077148 4.2834E-13
9777.953125 4.3106E-13
9782.828125 4.2881E-13
9787.704102 4.3006E-13
9792.579102 4.2542E-13
9797.455078 4.241E-13
9802.330078 4.2429E-13
9807.205078 4.2762E-13
9812.081055 4.2293E-13
9816.956055 4.232E-13
9821.831055 4.2145E-13
9826.706055 4.2008E-13
9831.581055 4.2047E-13
9836.456055 4.2422E-13
9841.331055 4.2184E-13
9846.206055 4.1908E-13
9851.081055 4.2665E-13
9855.956055 4.2146E-13
9860.830078 4.2303E-13
9865.705078 4.2151E-13
9870.580078 4.1525E-13
9875.454102 4.1599E-13
9880.329102 4.2341E-13
9885.203125 4.2415E-13
9890.078125 4.2202E-13
9894.952148 4.2281E-13
9899.827148 4.2168E-13
9904.701172 4.1322E-13
9909.575195 4.1691E-13
9914.449219 4.1828E-13
9919.324219 4.1322E-13
9924.198242 4.1752E-13
9929.072266 4.1733E-13
9933.946289 4.1993E-13
9938.820312 4.1589E-13
9943.694336 4.16E-13
9948.568359 4.1722E-13
9953.442383 4.1587E-13
9958.31543 4.1639E-13
9963.189453 4.1722E-13
9968.063477 4.1528E-13
9972.936523 4.1304E-13
9977.810547 4.1425E-13
9982.683594 4.1182E-13
9987.557617 4.1304E-13
9992.430664 4.1113E-13
9997.304688 4.1282E-13
